<?xml version="1.0" encoding="UTF-8"?>
<!--
Dieses FHIR-Bundle steht im Aufrufkontext 7 und bildet die Erstellung eines Medikationsplans ab.  
In diesem Szenario 5 wird der Datensatz erweitert um eine DocumentReference mit einem eingebetteten, signierten E-Rezept.  
Das E-Rezept ist als Attachment (contentType=application/pkcs7-mime) Base64-kodiert im Bundle enthalten.  
-->
<Bundle xmlns="http://hl7.org/fhir">
    <id value="example-ak7-aufruf-bundle-oberservations-eRezept"/>
    <meta>
        <profile value="https://fhir.kbv.de/StructureDefinition/KBV_PR_VoS_Bundle_PVS_VoS|2.2.0"/>
    </meta>
    <identifier>
        <system value="https://fhir.kbv.de/NamingSystem/KBV_NS_VoS_BundleID"/>
        <value value="Test-ID-PVS"/>
    </identifier>
    <type value="document"/>
    <timestamp value="2025-10-07T13:35:03+00:00"/>
    <entry>
        <fullUrl value="urn:uuid:54ef329e-48a1-4733-a751-7f3a7bc193b7"/>
        <resource>
            <Composition>
                <id value="54ef329e-48a1-4733-a751-7f3a7bc193b7"/>
                <meta>
                    <versionId value="1"/>
                    <lastUpdated value="2025-10-07T13:35:03+00:00"/>
                    <profile value="https://fhir.kbv.de/StructureDefinition/KBV_PR_VoS_Composition|2.2.0"/>
                </meta>
                <extension url="https://fhir.kbv.de/StructureDefinition/KBV_EX_FOR_Legal_basis">
                    <valueCoding>
                        <system value="https://fhir.kbv.de/CodeSystem/KBV_CS_SFHIR_KBV_STATUSKENNZEICHEN"/>
                        <code value="00"/>
                    </valueCoding>
                </extension>
                <extension url="https://fhir.kbv.de/StructureDefinition/KBV_EX_VoS_StartUp_Context">
                    <valueCodeableConcept>
                        <coding>
                            <system value="https://fhir.kbv.de/CodeSystem/KBV_CS_VoS_StartUp_Context"/>
                            <code value="7"/>
                            <display value="Medikationsplan für Patienten neu erstellen"/>
                        </coding>
                    </valueCodeableConcept>
                </extension>
                <status value="final"/>
                <type>
                    <coding>
                        <system value="http://loinc.org"/>
                        <code value="11503-0"/>
                    </coding>
                </type>
                <subject>
                    <reference value="urn:uuid:371cf692-89dd-4a19-a180-d78991a32950"/>
                </subject>
                <date value="2025-10-07T13:35:03Z"/>
                <author>
                    <reference value="urn:uuid:f2ea54b9-ab1a-43d9-8727-fa24c61c820d"/>
                    <type value="Practitioner"/>
                </author>
                <author>
                    <reference value="urn:uuid:a65abf38-c8b5-465b-89a9-c5b823f01dbe"/>
                    <type value="Device"/>
                </author>
                <author>
                    <reference value="urn:uuid:e120bfbc-604d-4f82-bd21-313aad02fa76"/>
                    <type value="PractitionerRole"/>
                </author>
                <title value="Aufruf der VoS"/>
                <custodian>
                    <reference value="urn:uuid:8d9fc65d-7baa-4b44-be96-5874b94c6471"/>
                </custodian>
                <section>
                    <code>
                        <coding>
                            <system value="https://fhir.kbv.de/CodeSystem/KBV_CS_VoS_SectionType"/>
                            <code value="Additional patient information"/>
                        </coding>
                    </code>
                    <entry>
                        <reference value="urn:uuid:bce2c05f-0fc8-47b7-b02d-f2b317f16436"/>
                    </entry>
                    <entry>
                        <reference value="urn:uuid:30e62fd0-ce6a-4907-8da4-be10dbeae727"/>
                    </entry>
                    <entry>
                        <reference value="urn:uuid:5caa1f52-b926-4331-9e66-6768e6f083e7"/>
                    </entry>
                    <entry>
                        <reference value="urn:uuid:45e5778e-1c5e-4223-9dcd-81e755f8cf10"/>
                    </entry>
                    <entry>
                        <reference value="urn:uuid:fd68d6a2-3a2d-4bc8-b821-37095ba2830d"/>
                    </entry>
                    <entry>
                        <reference value="urn:uuid:81a340d0-25f3-4f37-bb62-6859c6c2a059"/>
                    </entry>
                    <entry>
                        <reference value="urn:uuid:9661d6a9-ed33-4e4a-b1b5-b227a8bc8c37"/>
                    </entry>
                    <entry>
                        <reference value="urn:uuid:44dbea48-9824-4b5c-9545-453ae330321d"/>
                    </entry>
                </section>
                <section>
                    <code>
                        <coding>
                            <system value="https://fhir.kbv.de/CodeSystem/KBV_CS_VoS_SectionType"/>
                            <code value="Documents"/>
                        </coding>
                    </code>
                    <entry>
                        <reference value="urn:uuid:c6f73ab6-ccbd-402d-a7de-3041bbed0da7"/>
                    </entry>
                </section>
            </Composition>
        </resource>
    </entry>
    <entry>
        <fullUrl value="urn:uuid:f2ea54b9-ab1a-43d9-8727-fa24c61c820d"/>
        <resource>
            <Practitioner>
                <id value="f2ea54b9-ab1a-43d9-8727-fa24c61c820d"/>
                <meta>
                    <versionId value="1"/>
                    <lastUpdated value="2025-10-07T13:40:00+00:00"/>
                    <profile value="https://fhir.kbv.de/StructureDefinition/KBV_PR_VoS_Practitioner|2.2.0"/>
                </meta>
                <identifier>
                    <use value="official"/>
                    <type>
                        <coding>
                            <system value="http://terminology.hl7.org/CodeSystem/v2-0203"/>
                            <code value="LANR"/>
                        </coding>
                    </type>
                    <system value="https://fhir.kbv.de/NamingSystem/KBV_NS_Base_ANR"/>
                    <value value="754236701"/>
                </identifier>
                <name>
                    <use value="official"/>
                    <family value="Schulz">
                        <extension url="http://hl7.org/fhir/StructureDefinition/humanname-own-name">
                            <valueString value="Schulz"/>
                        </extension>
                    </family>
                    <given value="Ben"/>
                </name>
                <qualification>
                    <code>
                        <coding>
                            <system value="https://fhir.kbv.de/CodeSystem/KBV_CS_FOR_Qualification_Type"/>
                            <code value="00"/>
                        </coding>
                    </code>
                </qualification>
                <qualification>
                    <code>
                        <coding>
                            <system value="https://fhir.kbv.de/CodeSystem/KBV_CS_FOR_Berufsbezeichnung"/>
                            <code value="Berufsbezeichnung"/>
                        </coding>
                        <text value="Facharzt für Allgemeinmedizin"/>
                    </code>
                </qualification>
            </Practitioner>
        </resource>
    </entry>
    <entry>
        <fullUrl value="urn:uuid:8d9fc65d-7baa-4b44-be96-5874b94c6471"/>
        <resource>
            <Organization>
                <id value="8d9fc65d-7baa-4b44-be96-5874b94c6471"/>
                <meta>
                    <versionId value="1"/>
                    <lastUpdated value="2025-10-07T13:40:00+00:00"/>
                    <profile value="https://fhir.kbv.de/StructureDefinition/KBV_PR_VoS_Organization|2.2.0"/>
                </meta>
                <identifier>
                    <use value="official"/>
                    <type>
                        <coding>
                            <system value="http://terminology.hl7.org/CodeSystem/v2-0203"/>
                            <code value="BSNR"/>
                        </coding>
                    </type>
                    <system value="https://fhir.kbv.de/NamingSystem/KBV_NS_Base_BSNR"/>
                    <value value="724444400"/>
                </identifier>
                <name value="Hausarztpraxis"/>
                <telecom>
                    <system value="phone"/>
                    <value value="030321654987"/>
                </telecom>
                <telecom>
                    <system value="email"/>
                    <value value="hausarztpraxis@e-mail.de"/>
                </telecom>
                <address>
                    <type value="both"/>
                    <line value="Herbert-Lewin-Platz 2">
                        <extension url="http://hl7.org/fhir/StructureDefinition/iso21090-ADXP-houseNumber">
                            <valueString value="2"/>
                        </extension>
                        <extension url="http://hl7.org/fhir/StructureDefinition/iso21090-ADXP-streetName">
                            <valueString value="Herbert-Lewin-Platz"/>
                        </extension>
                    </line>
                    <line value="Erdgeschoss">
                        <extension url="http://hl7.org/fhir/StructureDefinition/iso21090-ADXP-additionalLocator">
                            <valueString value="Erdgeschoss"/>
                        </extension>
                    </line>
                    <city value="Berlin"/>
                    <postalCode value="10623"/>
                    <country value="D"/>
                </address>
            </Organization>
        </resource>
    </entry>
    <entry>
        <fullUrl value="urn:uuid:a65abf38-c8b5-465b-89a9-c5b823f01dbe"/>
        <resource>
            <Device>
                <id value="a65abf38-c8b5-465b-89a9-c5b823f01dbe"/>
                <meta>
                    <versionId value="1"/>
                    <lastUpdated value="2025-09-07T15:14:00+00:00"/>
                    <profile value="https://fhir.kbv.de/StructureDefinition/KBV_PR_VoS_Device_PVS|2.2.0"/>
                </meta>
                <identifier>
                    <system value="https://fhir.kbv.de/NamingSystem/KBV_NS_FOR_Pruefnummer"/>
                    <value value="Y/70/2207/36/ID"/>
                </identifier>
                <deviceName>
                    <name value="KBV-PVS"/>
                    <type value="manufacturer-name"/>
                </deviceName>
                <type>
                    <coding>
                        <system value="http://snomed.info/sct"/>
                        <version value="http://snomed.info/sct/11000274103/version/20240515"/>
                        <code value="463916008"/>
                        <display value="Physician-practice-management information system application software (physical object)"/>
                    </coding>
                </type>
                <contact>
                    <system value="phone"/>
                    <value value="030/4005-0"/>
                </contact>
                <contact>
                    <system value="email"/>
                    <value value="ita@kbv.de"/>
                </contact>
            </Device>
        </resource>
    </entry>
    <entry>
        <fullUrl value="urn:uuid:e120bfbc-604d-4f82-bd21-313aad02fa76"/>
        <resource>
            <PractitionerRole>
                <id value="e120bfbc-604d-4f82-bd21-313aad02fa76"/>
                <meta>
                    <versionId value="1"/>
                    <lastUpdated value="2025-10-07T13:40:00+00:00"/>
                    <profile value="https://fhir.kbv.de/StructureDefinition/KBV_PR_VoS_PractitionerRole|2.2.0"/>
                </meta>
                <practitioner>
                    <reference value="urn:uuid:f2ea54b9-ab1a-43d9-8727-fa24c61c820d"/>
                </practitioner>
                <organization>
                    <reference value="urn:uuid:8d9fc65d-7baa-4b44-be96-5874b94c6471"/>
                </organization>
            </PractitionerRole>
        </resource>
    </entry>
    <entry>
        <fullUrl value="urn:uuid:5caa1f52-b926-4331-9e66-6768e6f083e7"/>
        <resource>
            <Coverage>
                <id value="5caa1f52-b926-4331-9e66-6768e6f083e7"/>
                <meta>
                    <versionId value="1"/>
                    <lastUpdated value="2025-10-07T13:40:00+00:00"/>
                    <profile value="https://fhir.kbv.de/StructureDefinition/KBV_PR_VoS_Coverage|2.2.0"/>
                </meta>
                <extension url="http://fhir.de/StructureDefinition/gkv/einlesedatum-karte">
                    <valueDateTime value="2025-10-01"/>
                </extension>
                <extension url="http://fhir.de/StructureDefinition/gkv/besondere-personengruppe">
                    <valueCoding>
                        <system value="https://fhir.kbv.de/CodeSystem/KBV_CS_SFHIR_KBV_PERSONENGRUPPE"/>
                        <code value="00"/>
                    </valueCoding>
                </extension>
                <extension url="http://fhir.de/StructureDefinition/gkv/dmp-kennzeichen">
                    <valueCoding>
                        <system value="https://fhir.kbv.de/CodeSystem/KBV_CS_SFHIR_KBV_DMP"/>
                        <code value="00"/>
                    </valueCoding>
                </extension>
                <extension url="http://fhir.de/StructureDefinition/gkv/wop">
                    <valueCoding>
                        <system value="https://fhir.kbv.de/CodeSystem/KBV_CS_SFHIR_ITA_WOP"/>
                        <code value="01"/>
                    </valueCoding>
                </extension>
                <extension url="http://fhir.de/StructureDefinition/gkv/versichertenart">
                    <valueCoding>
                        <system value="https://fhir.kbv.de/CodeSystem/KBV_CS_SFHIR_KBV_VERSICHERTENSTATUS"/>
                        <code value="1"/>
                    </valueCoding>
                </extension>
                <status value="active"/>
                <type>
                    <coding>
                        <system value="http://fhir.de/CodeSystem/versicherungsart-de-basis"/>
                        <code value="GKV"/>
                    </coding>
                </type>
                <beneficiary>
                    <reference value="urn:uuid:371cf692-89dd-4a19-a180-d78991a32950"/>
                </beneficiary>
                <payor>
                    <identifier>
                        <system value="http://fhir.de/sid/arge-ik/iknr"/>
                        <value value="108018347"/>
                    </identifier>
                    <display value="AOK Baden-Württemberg"/>
                </payor>
            </Coverage>
        </resource>
    </entry>
    <entry>
        <fullUrl value="urn:uuid:371cf692-89dd-4a19-a180-d78991a32950"/>
        <resource>
            <Patient>
                <id value="371cf692-89dd-4a19-a180-d78991a32950"/>
                <meta>
                    <versionId value="1"/>
                    <lastUpdated value="2025-10-07T13:40:00+00:00"/>
                    <profile value="https://fhir.kbv.de/StructureDefinition/KBV_PR_VoS_Patient|2.2.0"/>
                </meta>
                <identifier>
                    <type>
                        <coding>
                            <system value="http://terminology.hl7.org/CodeSystem/v2-0203"/>
                            <code value="MR"/>
                        </coding>
                    </type>
                    <system value="http://kbv-testpraxis.de/patient-identifier"/>
                    <value value="P47-03"/>
                </identifier>
                <identifier>
                    <use value="official"/>
                    <type>
                        <coding>
                            <system value="http://fhir.de/CodeSystem/identifier-type-de-basis"/>
                            <code value="KVZ10"/>
                        </coding>
                    </type>
                    <system value="http://fhir.de/sid/gkv/kvid-10"/>
                    <value value="K220645122"/>
                </identifier>
                <name>
                    <use value="official"/>
                    <family value="Schuhmann">
                        <extension url="http://hl7.org/fhir/StructureDefinition/humanname-own-name">
                            <valueString value="Schuhmann"/>
                        </extension>
                    </family>
                    <given value="Sahra"/>
                </name>
                <gender value="female"/>
                <birthDate value="1970-12-24"/>
                <address>
                    <type value="both"/>
                    <line value="Berliner Straße 1">
                        <extension url="http://hl7.org/fhir/StructureDefinition/iso21090-ADXP-houseNumber">
                            <valueString value="1"/>
                        </extension>
                        <extension url="http://hl7.org/fhir/StructureDefinition/iso21090-ADXP-streetName">
                            <valueString value="Berliner Straße"/>
                        </extension>
                    </line>
                    <city value="Husum"/>
                    <postalCode value="25813"/>
                    <country value="D"/>
                </address>
            </Patient>
        </resource>
    </entry>
    <entry>
        <fullUrl value="urn:uuid:bce2c05f-0fc8-47b7-b02d-f2b317f16436"/>
        <resource>
            <AllergyIntolerance>
                <id value="bce2c05f-0fc8-47b7-b02d-f2b317f16436"/>
                <meta>
                    <profile value="https://fhir.kbv.de/StructureDefinition/KBV_PR_VoS_AllergyIntolerance|2.2.0"/>
                </meta>
                <clinicalStatus>
                    <coding>
                        <system value="http://terminology.hl7.org/CodeSystem/allergyintolerance-clinical"/>
                        <version value="1.0.1"/>
                        <code value="active"/>
                        <display value="Active"/>
                    </coding>
                </clinicalStatus>
                <verificationStatus>
                    <coding>
                        <system value="http://terminology.hl7.org/CodeSystem/allergyintolerance-verification"/>
                        <version value="1.0.1"/>
                        <code value="confirmed"/>
                        <display value="Confirmed"/>
                    </coding>
                </verificationStatus>
                <type value="allergy"/>
                <code>
                    <coding>
                        <system value="http://snomed.info/sct"/>
                        <version value="http://snomed.info/sct/11000274103/version/20240515"/>
                        <code value="128488006"/>
                        <display value="House dust (substance)"/>
                    </coding>
                    <text value="Hausstaub"/>
                </code>
                <patient>
                    <reference value="urn:uuid:371cf692-89dd-4a19-a180-d78991a32950"/>
                </patient>
                <reaction>
                    <manifestation>
                        <text value="Atemnot"/>
                    </manifestation>
                </reaction>
                <reaction>
                    <manifestation>
                        <text value="Juckreiz"/>
                    </manifestation>
                </reaction>
            </AllergyIntolerance>
        </resource>
    </entry>
    <entry>
        <fullUrl value="urn:uuid:b41abef5-f2a4-404b-954d-60aa70fb7241"/>
        <resource>
            <Provenance>
                <id value="b41abef5-f2a4-404b-954d-60aa70fb7241"/>
                <meta>
                    <versionId value="1"/>
                    <lastUpdated value="2022-09-06T14:22:00Z"/>
                    <profile value="https://fhir.kbv.de/StructureDefinition/KBV_PR_VoS_Provenance_AllergyIntolerance|2.2.0"/>
                </meta>
                <target>
                    <reference value="urn:uuid:bce2c05f-0fc8-47b7-b02d-f2b317f16436"/>
                </target>
                <recorded value="2022-09-06T09:06:00Z"/>
                <activity>
                    <coding>
                        <system value="http://terminology.hl7.org/CodeSystem/v3-DataOperation"/>
                        <version value="5.0.0"/>
                        <code value="CREATE"/>
                    </coding>
                </activity>
                <agent>
                    <type>
                        <coding>
                            <system value="http://terminology.hl7.org/CodeSystem/provenance-participant-type"/>
                            <version value="1.1.0"/>
                            <code value="author"/>
                        </coding>
                    </type>
                    <role>
                        <coding>
                            <system value="http://terminology.hl7.org/CodeSystem/v3-RoleClass"/>
                            <version value="4.0.0"/>
                            <code value="PAT"/>
                        </coding>
                    </role>
                    <who>
                        <reference value="urn:uuid:371cf692-89dd-4a19-a180-d78991a32950"/>
                        <type value="Patient"/>
                    </who>
                </agent>
            </Provenance>
        </resource>
    </entry>
    <entry>
        <fullUrl value="urn:uuid:30e62fd0-ce6a-4907-8da4-be10dbeae727"/>
        <resource>
            <AllergyIntolerance>
                <id value="30e62fd0-ce6a-4907-8da4-be10dbeae727"/>
                <meta>
                    <versionId value="1"/>
                    <lastUpdated value="2022-09-01T09:06:00Z"/>
                    <profile value="https://fhir.kbv.de/StructureDefinition/KBV_PR_VoS_AllergyIntolerance|2.2.0"/>
                </meta>
                <clinicalStatus>
                    <coding>
                        <system value="http://terminology.hl7.org/CodeSystem/allergyintolerance-clinical"/>
                        <version value="1.0.1"/>
                        <code value="active"/>
                        <display value="Active"/>
                    </coding>
                </clinicalStatus>
                <verificationStatus>
                    <coding>
                        <system value="http://terminology.hl7.org/CodeSystem/allergyintolerance-verification"/>
                        <version value="1.0.1"/>
                        <code value="confirmed"/>
                        <display value="Confirmed"/>
                    </coding>
                </verificationStatus>
                <type value="allergy"/>
                <code>
                    <coding>
                        <system value="http://snomed.info/sct"/>
                        <version value="http://snomed.info/sct/11000274103/version/20240515"/>
                        <code value="323389000"/>
                        <display value="Benzylpenicillin (substance)"/>
                    </coding>
                    <coding>
                        <system value="http://fhir.de/CodeSystem/ask"/>
                        <version value="1.5.4"/>
                        <code value="00246"/>
                        <display value="Benzylpenicillin"/>
                    </coding>
                    <coding>
                        <system value="http://fhir.de/CodeSystem/bfarm/atc"/>
                        <version value="2022"/>
                        <code value="J01CE01"/>
                        <display value="Benzylpenicillin"/>
                    </coding>
                    <coding>
                        <system value="http://fhir.de/CodeSystem/ifa/pzn"/>
                        <code value="16849789"/>
                    </coding>
                    <text value="Benzylpenicillin/Penicillin G"/>
                </code>
                <patient>
                    <reference value="urn:uuid:371cf692-89dd-4a19-a180-d78991a32950"/>
                </patient>
                <reaction>
                    <manifestation>
                        <text value="anaphylaktischer Schock"/>
                    </manifestation>
                </reaction>
            </AllergyIntolerance>
        </resource>
    </entry>
    <entry>
        <fullUrl value="urn:uuid:35e2ad13-501d-49df-b1d9-9ce46238ad93"/>
        <resource>
            <Provenance>
                <id value="35e2ad13-501d-49df-b1d9-9ce46238ad93"/>
                <meta>
                    <versionId value="1"/>
                    <lastUpdated value="2022-09-06T14:22:00Z"/>
                    <profile value="https://fhir.kbv.de/StructureDefinition/KBV_PR_VoS_Provenance_AllergyIntolerance|2.2.0"/>
                </meta>
                <target>
                    <reference value="urn:uuid:30e62fd0-ce6a-4907-8da4-be10dbeae727"/>
                </target>
                <recorded value="2022-09-06T09:06:00Z"/>
                <activity>
                    <coding>
                        <system value="http://terminology.hl7.org/CodeSystem/v3-DataOperation"/>
                        <version value="5.0.0"/>
                        <code value="CREATE"/>
                    </coding>
                </activity>
                <agent>
                    <type>
                        <coding>
                            <system value="http://terminology.hl7.org/CodeSystem/provenance-participant-type"/>
                            <version value="1.1.0"/>
                            <code value="author"/>
                        </coding>
                    </type>
                    <role>
                        <coding>
                            <system value="http://terminology.hl7.org/CodeSystem/v3-RoleClass"/>
                            <version value="4.0.0"/>
                            <code value="PROV"/>
                        </coding>
                    </role>
                    <who>
                        <reference value="urn:uuid:f2ea54b9-ab1a-43d9-8727-fa24c61c820d"/>
                        <type value="Practitioner"/>
                    </who>
                </agent>
            </Provenance>
        </resource>
    </entry>
    <entry>
        <fullUrl value="urn:uuid:45e5778e-1c5e-4223-9dcd-81e755f8cf10"/>
        <resource>
            <Observation>
                <id value="45e5778e-1c5e-4223-9dcd-81e755f8cf10"/>
                <meta>
                    <versionId value="1"/>
                    <lastUpdated value="2022-09-05T14:13:00Z"/>
                    <profile value="https://fhir.kbv.de/StructureDefinition/KBV_PR_VoS_Observation_Body_Height|2.2.0"/>
                </meta>
                <status value="final"/>
                <category>
                    <coding>
                        <system value="http://terminology.hl7.org/CodeSystem/observation-category"/>
                        <code value="vital-signs"/>
                    </coding>
                </category>
                <code>
                    <coding>
                        <system value="http://snomed.info/sct"/>
                        <version value="http://snomed.info/sct/11000274103/version/20240515"/>
                        <code value="1153637007"/>
                        <display value="Body height (observable entity)"/>
                    </coding>
                    <coding>
                        <system value="http://loinc.org"/>
                        <version value="2.77"/>
                        <code value="8302-2"/>
                        <display value="Body height"/>
                    </coding>
                </code>
                <subject>
                    <reference value="urn:uuid:371cf692-89dd-4a19-a180-d78991a32950"/>
                </subject>
                <effectiveDateTime value="2022-09-05"/>
                <valueQuantity>
                    <value value="168"/>
                    <unit value="cm"/>
                    <system value="http://unitsofmeasure.org"/>
                    <code value="cm"/>
                </valueQuantity>
            </Observation>
        </resource>
    </entry>
    <entry>
        <fullUrl value="urn:uuid:fd68d6a2-3a2d-4bc8-b821-37095ba2830d"/>
        <resource>
            <Observation>
                <id value="fd68d6a2-3a2d-4bc8-b821-37095ba2830d"/>
                <meta>
                    <versionId value="1"/>
                    <lastUpdated value="2022-09-05T14:26:00Z"/>
                    <profile value="https://fhir.kbv.de/StructureDefinition/KBV_PR_VoS_Observation_Body_Weight|2.2.0"/>
                </meta>
                <status value="final"/>
                <category>
                    <coding>
                        <system value="http://terminology.hl7.org/CodeSystem/observation-category"/>
                        <code value="vital-signs"/>
                    </coding>
                </category>
                <code>
                    <coding>
                        <system value="http://snomed.info/sct"/>
                        <version value="http://snomed.info/sct/11000274103/version/20240515"/>
                        <code value="27113001"/>
                        <display value="Body weight (observable entity)"/>
                    </coding>
                    <coding>
                        <system value="http://loinc.org"/>
                        <version value="2.77"/>
                        <code value="29463-7"/>
                        <display value="Body weight"/>
                    </coding>
                </code>
                <subject>
                    <reference value="urn:uuid:371cf692-89dd-4a19-a180-d78991a32950"/>
                </subject>
                <effectiveDateTime value="2022-09-05"/>
                <valueQuantity>
                    <value value="70.1"/>
                    <unit value="kilogram"/>
                    <system value="http://unitsofmeasure.org"/>
                    <code value="kg"/>
                </valueQuantity>
            </Observation>
        </resource>
    </entry>
    <entry>
        <fullUrl value="urn:uuid:81a340d0-25f3-4f37-bb62-6859c6c2a059"/>
        <resource>
            <Observation>
                <id value="81a340d0-25f3-4f37-bb62-6859c6c2a059"/>
                <meta>
                    <versionId value="1"/>
                    <lastUpdated value="2022-09-05T18:53:00Z"/>
                    <profile value="https://fhir.kbv.de/StructureDefinition/KBV_PR_VoS_Observation_Creatinine_Level|2.2.0"/>
                </meta>
                <status value="final"/>
                <code>
                    <coding>
                        <system value="http://loinc.org"/>
                        <code value="2160-0"/>
                        <display value="Creatinine [Mass/volume] in Serum or Plasma"/>
                    </coding>
                    <coding>
                        <system value="https://fhir.kbv.de/CodeSystem/KBV_CS_VoS_VitalSigns"/>
                        <code value="Kreatinin"/>
                        <display value="Kreatinin"/>
                    </coding>
                </code>
                <subject>
                    <reference value="urn:uuid:371cf692-89dd-4a19-a180-d78991a32950"/>
                </subject>
                <effectiveDateTime value="2021-10-01"/>
                <valueQuantity>
                    <value value="1.1"/>
                    <unit value="mg/dL"/>
                    <system value="http://unitsofmeasure.org"/>
                    <code value="mg/dL"/>
                </valueQuantity>
            </Observation>
        </resource>
    </entry>
    <entry>
        <fullUrl value="urn:uuid:9661d6a9-ed33-4e4a-b1b5-b227a8bc8c37"/>
        <resource>
            <Observation>
                <id value="9661d6a9-ed33-4e4a-b1b5-b227a8bc8c37"/>
                <meta>
                    <versionId value="1"/>
                    <lastUpdated value="2022-09-05T18:53:00Z"/>
                    <profile value="https://fhir.kbv.de/StructureDefinition/KBV_PR_VoS_Observation_Pregnancy_Status|2.2.0"/>
                </meta>
                <status value="final"/>
                <code>
                    <coding>
                        <system value="http://loinc.org"/>
                        <version value="2.77"/>
                        <code value="82810-3"/>
                        <display value="Pregnancy status"/>
                    </coding>
                </code>
                <subject>
                    <reference value="urn:uuid:371cf692-89dd-4a19-a180-d78991a32950"/>
                </subject>
                <effectiveDateTime value="2021-10-01"/>
                <valueCodeableConcept>
                    <coding>
                        <system value="http://loinc.org"/>
                        <version value="2.77"/>
                        <code value="LA15173-0"/>
                        <display value="Pregnant"/>
                    </coding>
                </valueCodeableConcept>
                <note>
                    <text value="ausgedacht"/>
                </note>
            </Observation>
        </resource>
    </entry>
    <entry>
        <fullUrl value="urn:uuid:44dbea48-9824-4b5c-9545-453ae330321d"/>
        <resource>
            <Observation>
                <id value="44dbea48-9824-4b5c-9545-453ae330321d"/>
                <meta>
                    <versionId value="1"/>
                    <lastUpdated value="2022-09-05T18:47:00Z"/>
                    <profile value="https://fhir.kbv.de/StructureDefinition/KBV_PR_VoS_Observation_Breastfeeding_Status|2.2.0"/>
                </meta>
                <status value="final"/>
                <code>
                    <coding>
                        <system value="http://loinc.org"/>
                        <version value="2.77"/>
                        <code value="63895-7"/>
                        <display value="Breastfeeding status"/>
                    </coding>
                </code>
                <subject>
                    <reference value="urn:uuid:371cf692-89dd-4a19-a180-d78991a32950"/>
                </subject>
                <effectiveDateTime value="2022-09-05"/>
                <valueCodeableConcept>
                    <coding>
                        <system value="http://loinc.org"/>
                        <version value="2.77"/>
                        <code value="LA29253-4"/>
                        <display value="Not currently breastfeeding"/>
                    </coding>
                </valueCodeableConcept>
            </Observation>
        </resource>
    </entry>
    <entry>
        <fullUrl value="urn:uuid:c6f73ab6-ccbd-402d-a7de-3041bbed0da7"/>
        <resource>
            <DocumentReference>
                <id value="c6f73ab6-ccbd-402d-a7de-3041bbed0da7"/>
                <meta>
                    <lastUpdated value="2025-09-08T08:44:00+00:00"/>
                    <profile value="https://fhir.kbv.de/StructureDefinition/KBV_PR_VoS_DocumentReference|2.2.0"/>
                </meta>
                <extension url="https://fhir.kbv.de/StructureDefinition/KBV_EX_VoS_ePrescription_Access">
                    <extension url="AccessCode">
                        <valueString value="777bea0e13cc9c42ceec14aec3ddee2263325dc2c6c699db115f58fe423607ea"/>
                    </extension>
                    <extension url="Task-ID">
                        <valueString value="160.100.000.000.042.13"/>
                    </extension>
                </extension>
                <status value="current"/>
                <type>
                    <coding>
                        <system value="http://ihe-d.de/CodeSystems/IHEXDStypeCode"/>
                        <code value="MEDI"/>
                        <display value="Medikamentöse Therapien"/>
                    </coding>
                    <coding>
                        <system value="https://fhir.kbv.de/CodeSystem/KBV_CS_VoS_DocumentType"/>
                        <code value="Signiertes_eRezept"/>
                        <display value="Signiertes_eRezept"/>
                    </coding>
                </type>
                <category>
                    <coding>
                        <system value="http://ihe-d.de/CodeSystems/IHEXDSclassCode"/>
                        <code value="VER"/>
                        <display value="Verordnung"/>
                    </coding>
                </category>
                <subject>
                    <reference value="urn:uuid:371cf692-89dd-4a19-a180-d78991a32950"/>
                </subject>
                <date value="2025-09-08T08:44:00+00:00"/>
                <author>
                    <reference value="urn:uuid:f2ea54b9-ab1a-43d9-8727-fa24c61c820d"/>
                    <type value="Practitioner"/>
                </author>
                <author>
                    <type value="Device"/>
                    <identifier>
                        <system value="https://fhir.kbv.de/NamingSystem/KBV_NS_FOR_Pruefnummer"/>
                        <value value="Y/70/2207/36/ID"/>
                    </identifier>
                </author>
                <custodian>
                    <reference value="urn:uuid:8d9fc65d-7baa-4b44-be96-5874b94c6471"/>
                </custodian>
                <content>
                    <attachment>
                        <contentType value="application/pkcs7-mime"/>
                        <data value=""/>
                        <title value="Signiertes_eRezept"/>
                    </attachment>
                </content>
            </DocumentReference>
        </resource>
    </entry>
</Bundle>